Folder: frangible-analyzer

Note: README.md
This is an application that analyzes lbf data to find two peaks and lowest (valley)

File: Frangible_8_2019-02-13_14-30-48.csv
Time (s),Load (lbf),Machine Extension (in),Extension (in)
0.0000,,,
0.2019,0.011676,0.0021350,0.0021350
0.4039,0.013359,0.0054086,0.0054086
0.6058,0.014634,0.0085413,0.0085413
0.8078,0.015908,0.012048,0.012048
1.010,0.016907,0.015481,0.015481
1.212,0.017341,0.018866,0.018866
1.414,0.017775,0.022187,0.022187
1.616,0.018210,0.025468,0.025468
1.817,0.018644,0.028792,0.028792
2.019,0.019078,0.032157,0.032157
2.221,0.019513,0.035522,0.035522
2.423,0.019947,0.038887,0.038887
2.625,0.020382,0.042252,0.042252
2.827,0.020816,0.045617,0.045617
3.029,0.021250,0.048982,0.048982
3.231,0.021685,0.052347,0.052347
3.433,0.022119,0.055712,0.055712
3.635,0.022553,0.059077,0.059077
3.837,0.022988,0.062442,0.062442
4.039,0.023422,0.065807,0.065807
4.241,0.023856,0.069172,0.069172
4.443,0.024291,0.072537,0.072537
4.645,0.024725,0.075902,0.075902
4.847,0.025159,0.079267,0.079267
5.049,0.025594,0.082632,0.082632
5.251,0.026028,0.085997,0.085997
5.452,0.026463,0.089362,0.089362
5.654,0.026897,0.092727,0.092727
5.856,0.027331,0.096092,0.096092
6.058,0.027766,0.099457,0.099457
6.260,0.028200,0.10282,0.10282
6.462,0.028634,0.10619,0.10619
6.664,0.029069,0.10955,0.10955
6.866,0.029503,0.11292,0.11292
7.068,0.029937,0.11628,0.11628
7.270,0.030372,0.11965,0.11965
7.472,0.030847,0.12301,0.12301
7.674,0.031555,0.12638,0.12638
7.876,0.032263,0.12974,0.12974
8.078,0.032971,0.13311,0.13311
8.280,0.033679,0.13647,0.13647
8.482,0.034387,0.13984,0.13984
8.684,0.035095,0.14320,0.14320
8.886,0.035803,0.14657,0.14657
9.087,0.036511,0.14993,0.14993
9.289,0.037219,0.15330,0.15330
9.491,0.037926,0.15666,0.15666
9.693,0.038634,0.16003,0.16003
9.895,0.039342,0.16339,0.16339
10.10,0.040050,0.16676,0.16676
10.30,0.040758,0.17012,0.17012
10.50,0.041466,0.17349,0.17349
10.70,0.042174,0.17685,0.17685
10.90,0.042882,0.18022,0.18022
11.11,0.043590,0.18359,0.18359
11.31,0.044298,0.18695,0.18695
11.51,0.045006,0.19032,0.19032
11.71,0.045713,0.19368,0.19368
11.91,0.046421,0.19705,0.19705
12.12,0.047129,0.20042,0.20042
12.32,0.047837,0.20378,0.20378
12.52,0.048545,0.20715,0.20715
12.72,0.049253,0.21051,0.21051
12.92,0.049928,0.21388,0.21388
13.13,0.050601,0.21725,0.21725
13.33,0.051275,0.22061,0.22061
13.53,0.051948,0.22398,0.22398
13.73,0.054544,0.22735,0.22735
13.93,0.053587,0.23071,0.23071
14.14,0.054930,0.23408,0.23408
14.34,0.056274,0.23744,0.23744
14.54,0.057617,0.24081,0.24081
14.74,0.058961,0.24418,0.24418
14.94,0.060305,0.24754,0.24754
15.15,0.061648,0.25091,0.25091
15.35,0.062992,0.25427,0.25427
15.55,0.064335,0.25764,0.25764
15.75,0.065679,0.26101,0.26101
15.95,0.067023,0.26437,0.26437
16.16,0.068366,0.26774,0.26774
16.36,0.069710,0.27110,0.27110
16.56,0.071053,0.27447,0.27447
16.76,0.072397,0.27784,0.27784
16.96,0.073741,0.28120,0.28120
17.17,0.075084,0.28457,0.28457
17.37,0.076776,0.28794,0.28794
17.57,0.078623,0.29130,0.29130
17.77,0.080470,0.29467,0.29467
17.97,0.082317,0.29803,0.29803
18.17,0.084163,0.30140,0.30140
18.38,0.086010,0.30477,0.30477
18.58,0.087857,0.30813,0.30813
18.78,0.089704,0.31150,0.31150
18.98,0.091551,0.31486,0.31486
19.18,0.092747,0.31823,0.31823
19.39,0.092505,0.32160,0.32160
19.59,0.095618,0.32496,0.32496
19.79,0.098731,0.32833,0.32833
19.99,0.10184,0.33169,0.33169
20.19,0.10496,0.33506,0.33506
20.40,0.10807,0.33843,0.33843
20.60,0.11118,0.34179,0.34179
20.80,0.11430,0.34516,0.34516
21.00,0.11741,0.34853,0.34853
21.20,0.12052,0.35189,0.35189
21.41,0.12364,0.35526,0.35526
21.61,0.12675,0.35862,0.35862
21.81,0.12986,0.36199,0.36199
22.01,0.13298,0.36536,0.36536
22.21,0.13609,0.36872,0.36872
22.42,0.14630,0.37209,0.37209
22.62,0.15058,0.37545,0.37545
22.82,0.15487,0.37882,0.37882
23.02,0.15916,0.38219,0.38219
23.22,0.16344,0.38555,0.38555
23.43,0.16773,0.38892,0.38892
23.63,0.17201,0.39228,0.39228
23.83,0.17630,0.39565,0.39565
24.03,0.18058,0.39902,0.39902
24.23,0.18487,0.40238,0.40238
24.44,0.18915,0.40575,0.40575
24.64,0.19344,0.40912,0.40912
24.84,0.19838,0.41248,0.41248
25.04,0.20447,0.41585,0.41585
25.24,0.21055,0.41921,0.41921
25.44,0.21664,0.42258,0.42258
25.65,0.22272,0.42595,0.42595
25.85,0.22881,0.42931,0.42931
26.05,0.23489,0.43268,0.43268
26.25,0.24098,0.43604,0.43604
26.45,0.24707,0.43941,0.43941
26.66,0.25315,0.44278,0.44278
26.86,0.25924,0.44614,0.44614
27.06,0.26532,0.44951,0.44951
27.26,0.27141,0.45287,0.45287
27.46,0.27833,0.45624,0.45624
27.67,0.28542,0.45961,0.45961
27.87,0.29250,0.46297,0.46297
28.07,0.29959,0.46634,0.46634
28.27,0.30631,0.46971,0.46971
28.47,0.31384,0.47307,0.47307
28.68,0.32437,0.47644,0.47644
28.88,0.33491,0.47980,0.47980
29.08,0.34544,0.48317,0.48317
29.28,0.35598,0.48654,0.48654
29.48,0.36651,0.48990,0.48990
29.69,0.37704,0.49327,0.49327
29.89,0.39355,0.49663,0.49663
30.09,0.40573,0.50000,0.50000
30.29,0.41792,0.50337,0.50337
30.49,0.43010,0.50673,0.50673
30.70,0.44229,0.51010,0.51010
30.90,0.45448,0.51347,0.51347
31.10,0.46666,0.51683,0.51683
31.30,0.47939,0.52020,0.52020
31.50,0.49256,0.52356,0.52356
31.71,0.50572,0.52693,0.52693
31.91,0.51889,0.53030,0.53030
32.11,0.53205,0.53366,0.53366
32.31,0.54522,0.53703,0.53703
32.51,0.55838,0.54039,0.54039
32.71,0.57155,0.54376,0.54376
32.92,0.58471,0.54713,0.54713
33.12,0.59788,0.55049,0.55049
33.32,0.61104,0.55386,0.55386
33.52,0.62421,0.55723,0.55723
33.72,0.63786,0.56059,0.56059
33.93,0.65162,0.56396,0.56396
34.13,0.66538,0.56733,0.56733
34.33,0.67914,0.57069,0.57069
34.53,0.69290,0.57406,0.57406
34.73,0.70666,0.57743,0.57743
34.94,0.72042,0.58080,0.58080
35.14,0.73423,0.58416,0.58416
35.34,0.74878,0.58753,0.58753
35.54,0.76333,0.59090,0.59090
35.74,0.77787,0.59427,0.59427
35.95,0.79242,0.59763,0.59763
36.15,0.80696,0.60100,0.60100
36.35,0.82151,0.60437,0.60437
36.55,0.83606,0.60774,0.60774
36.75,0.85060,0.61110,0.61110
36.96,0.86515,0.61447,0.61447
37.16,0.88004,0.61784,0.61784
37.36,0.89522,0.62121,0.62121
37.56,0.91040,0.62457,0.62457
37.76,0.92557,0.62794,0.62794
37.97,0.94075,0.63131,0.63131
38.17,0.95593,0.63468,0.63468
38.37,0.97111,0.63804,0.63804
38.57,0.98628,0.64141,0.64141
38.77,1.0015,0.64478,0.64478
38.98,1.0166,0.64814,0.64814
39.18,1.0318,0.65151,0.65151
39.38,1.0470,0.65488,0.65488
39.58,1.0622,0.65825,0.65825
39.78,1.0773,0.66161,0.66161
39.98,1.0925,0.66498,0.66498
40.19,1.1073,0.66835,0.66835
40.39,1.1219,0.67172,0.67172
40.59,1.1364,0.67508,0.67508
40.79,1.1510,0.67845,0.67845
40.99,1.1656,0.68182,0.68182
41.20,1.1802,0.68519,0.68519
41.40,1.1947,0.68855,0.68855
41.60,1.2093,0.69192,0.69192
41.80,1.2239,0.69529,0.69529
42.00,1.2385,0.69866,0.69866
42.21,1.2531,0.70202,0.70202
42.41,1.2676,0.70539,0.70539
42.61,1.2813,0.70876,0.70876
42.81,1.2943,0.71213,0.71213
43.01,1.3074,0.71549,0.71549
43.22,1.3204,0.71886,0.71886
43.42,1.3329,0.72223,0.72223
43.62,1.3441,0.72559,0.72559
43.82,1.3553,0.72896,0.72896
44.02,1.3664,0.73233,0.73233
44.23,1.3776,0.73570,0.73570
44.43,1.3888,0.73906,0.73906
44.63,1.3999,0.74243,0.74243
44.83,1.4111,0.74580,0.74580
45.03,1.4223,0.74917,0.74917
45.24,1.4335,0.75253,0.75253
45.44,1.4446,0.75590,0.75590
45.64,1.4558,0.75927,0.75927
45.84,1.4670,0.76263,0.76263
46.04,1.4765,0.76600,0.76600
46.25,1.4800,0.76937,0.76937
46.45,1.4834,0.77274,0.77274
46.65,1.4794,0.77610,0.77610
46.85,1.4635,0.77947,0.77947
47.05,0.35366,0.78284,0.78284
47.25,0.36861,0.78620,0.78620
47.46,0.38006,0.78957,0.78957
47.66,0.39150,0.79294,0.79294
47.86,0.40294,0.79631,0.79631
48.06,0.41438,0.79967,0.79967
48.26,0.42583,0.80304,0.80304
48.47,0.43727,0.80641,0.80641
48.67,0.44871,0.80977,0.80977
48.87,0.46015,0.81314,0.81314
49.07,0.46634,0.81651,0.81651
49.27,0.47765,0.81988,0.81988
49.48,0.48896,0.82324,0.82324
49.68,0.50026,0.82661,0.82661
49.88,0.51157,0.82998,0.82998
50.08,0.52232,0.83334,0.83334
50.28,0.53061,0.83671,0.83671
50.49,0.53890,0.84008,0.84008
50.69,0.54719,0.84345,0.84345
50.89,0.55548,0.84681,0.84681
51.09,0.56195,0.85018,0.85018
51.29,0.56791,0.85355,0.85355
51.50,0.57767,0.85691,0.85691
51.70,0.58795,0.86028,0.86028
51.90,0.59824,0.86365,0.86365
52.10,0.60853,0.86702,0.86702
52.30,0.61881,0.87038,0.87038
52.51,0.62942,0.87375,0.87375
52.71,0.64009,0.87712,0.87712
52.91,0.65077,0.88048,0.88048
53.11,0.66144,0.88385,0.88385
53.31,0.66911,0.88722,0.88722
53.52,0.67488,0.89058,0.89058
53.72,0.68065,0.89395,0.89395
53.92,0.68643,0.89732,0.89732
54.12,0.69172,0.90069,0.90069
54.32,0.69349,0.90405,0.90405
54.52,0.69527,0.90742,0.90742
54.73,0.69704,0.91079,0.91079
54.93,0.69817,0.91415,0.91415
55.13,0.69614,0.91752,0.91752
55.33,0.69402,0.92089,0.92089
55.53,0.68735,0.92426,0.92426
55.74,0.68067,0.92762,0.92762
55.94,0.67399,0.93099,0.93099
56.14,0.65427,0.93436,0.93436
56.34,0.63534,0.93772,0.93772
56.54,0.61642,0.94109,0.94109
56.75,0.58409,0.94446,0.94446
56.95,0.53524,0.94783,0.94783
57.15,0.050751,0.95119,0.95119
57.35,0.051669,0.95456,0.95456
57.55,0.052587,0.95793,0.95793
57.76,0.053506,0.96129,0.96129
57.96,0.054424,0.96466,0.96466
58.16,0.055342,0.96803,0.96803
58.36,0.056260,0.97140,0.97140
58.56,0.057178,0.97477,0.97477
58.77,0.058096,0.97813,0.97813
58.97,0.059014,0.98150,0.98150
59.17,0.059933,0.98487,0.98487
59.37,0.060851,0.98824,0.98824
59.57,0.061769,0.99161,0.99161
59.78,0.062687,0.99497,0.99497
59.98,0.063605,0.99830,0.99830
60.18,0.064523,0.99927,0.99927
60.38,0.065441,1.0002,1.0002
60.56,0.076023,1.0002,1.0002